Folder: material-properties-interchange/plots from mmpds/AISI 304/annealed_strength_tensile_ultimate

Note: README.md
Material Properties Interchange
===============================
[![Build Status](https://travis-ci.org/mvernacc/material-properties-interchange.svg?branch=master)](https://travis-ci.org/mvernacc/material-properties-interchange) [![codecov](https://codecov.io/gh/mvernacc/material-properties-interchange/branch/master/graph/badge.svg)](https://codecov.io/gh/mvernacc/material-properties-interchange)



Do for material properties what STEP files do for 3D geometry.

I've only made a rough demo so far. If you would find it useful please leave a comment or message me.

# Current Status
Check out `tutorials/xplane_airframes.ipynb` for a demonstration of how to use the package and why it's useful for engineers.

So far, I've implemented the following:
  -  A prototype of a material database record in YAML: `materials_data/Al_6061.yaml`. So far this is only a limited subset of properties for a single material.
  - The core datastructures + logic for representing a material property, and doing interpolation for state-dependent properties: `materials/property.py`.
  - The core logic for loading material data from a YAMl file into a python object: `materials/material.py`.
  -  Some unit tests for the above.

# Project Proposal

Provide for the interchange of information on material properties between CAD software, FEA software, and custom analysis scripts.
I spend a lot of time manually transcribing material properties from MatWeb or MMPDS into SolidWorks and my own python scripts.
This process is tedious and error prone -  I'd like to make it better, and I imagine other engineers would appreciate this too.
It would be valuable for a project to have a single (verified) database of material properties, which all of the project's computational tools (CAD, FEA, analysis scripts) reference.

## Core components

### Database
Format for recording properties of a material. Use a standard syntax (YAML)?

### Interchange Programs
Import from MatWeb.

Convert to/from formats used by major CAD/FEA packages.

### API
Access material properties from python, MATLAB, Excel(?).


# Similar Products/Projects

[Granta MI](https://www.grantadesign.com/products/mi/) and the [Material Data Management Consortium](http://www.grantadesign.com/download/pdf/mdmc_datasheet.pdf)

File: strength.csv
-451.0638, 2.4203
-360.0000, 2.1803
-320.0000, 2.0741
-280.0000, 1.9601
-240.0000, 1.8480
-200.0000, 1.7442
-160.0000, 1.6374
-120.0000, 1.5249
-80.0000, 1.4148
-40.0000, 1.3108
0.0000, 1.2013
40.0000, 1.0948
80.0000, 1.0005
120.0000, 0.9272
160.0000, 0.8667
200.0000, 0.8153
240.0000, 0.7770
280.0000, 0.7481
320.0000, 0.7268
360.0000, 0.7120
400.0000, 0.7033
440.0000, 0.6967
480.0000, 0.6946
520.0000, 0.6927
560.0000, 0.6913
600.0000, 0.6892
640.0000, 0.6867
680.0000, 0.6855
720.0000, 0.6844
760.0000, 0.6844
800.0000, 0.6831
840.0000, 0.6755
880.0000, 0.6672
920.0000, 0.6567
960.0000, 0.6453
1000, 0.6328
1040, 0.6161
1080, 0.5975
1120, 0.5760
1160, 0.5506
1200, 0.5231
1240, 0.4920
1280, 0.4607
1320, 0.4270
1360, 0.3915
1400, 0.3564
1440, 0.3185
1480, 0.2797
1497.87, 0.2613