Folder: material-properties-interchange/plots from mmpds/AISI 304/annealed_strength_tensile_yield

Note: README.md
Material Properties Interchange
===============================
[![Build Status](https://travis-ci.org/mvernacc/material-properties-interchange.svg?branch=master)](https://travis-ci.org/mvernacc/material-properties-interchange) [![codecov](https://codecov.io/gh/mvernacc/material-properties-interchange/branch/master/graph/badge.svg)](https://codecov.io/gh/mvernacc/material-properties-interchange)



Do for material properties what STEP files do for 3D geometry.

I've only made a rough demo so far. If you would find it useful please leave a comment or message me.

# Current Status
Check out `tutorials/xplane_airframes.ipynb` for a demonstration of how to use the package and why it's useful for engineers.

So far, I've implemented the following:
  -  A prototype of a material database record in YAML: `materials_data/Al_6061.yaml`. So far this is only a limited subset of properties for a single material.
  - The core datastructures + logic for representing a material property, and doing interpolation for state-dependent properties: `materials/property.py`.
  - The core logic for loading material data from a YAMl file into a python object: `materials/material.py`.
  -  Some unit tests for the above.

# Project Proposal

Provide for the interchange of information on material properties between CAD software, FEA software, and custom analysis scripts.
I spend a lot of time manually transcribing material properties from MatWeb or MMPDS into SolidWorks and my own python scripts.
This process is tedious and error prone -  I'd like to make it better, and I imagine other engineers would appreciate this too.
It would be valuable for a project to have a single (verified) database of material properties, which all of the project's computational tools (CAD, FEA, analysis scripts) reference.

## Core components

### Database
Format for recording properties of a material. Use a standard syntax (YAML)?

### Interchange Programs
Import from MatWeb.

Convert to/from formats used by major CAD/FEA packages.

### API
Access material properties from python, MATLAB, Excel(?).


# Similar Products/Projects

[Granta MI](https://www.grantadesign.com/products/mi/) and the [Material Data Management Consortium](http://www.grantadesign.com/download/pdf/mdmc_datasheet.pdf)

File: strength.csv
-451.2397, 1.2948
-404.1322, 1.2917
-360.0000, 1.2831
-320.0000, 1.2711
-280.0000, 1.2558
-240.0000, 1.2373
-200.0000, 1.2165
-160.0000, 1.1912
-120.0000, 1.1655
-80.0000, 1.1361
-40.0000, 1.1034
-0.0000, 1.0692
40.0000, 1.0331
80.0000, 0.9950
120.0000, 0.9503
160.0000, 0.9037
200.0000, 0.8577
240.0000, 0.8106
280.0000, 0.7667
320.0000, 0.7325
360.0000, 0.7022
400.0000, 0.6742
440.0000, 0.6520
480.0000, 0.6355
520.0000, 0.6250
560.0000, 0.6180
600.0000, 0.6144
640.0000, 0.6125
680.0000, 0.6105
720.0000, 0.6105
760.0000, 0.6105
800.0000, 0.6105
840.0000, 0.6126
880.0000, 0.6125
920.0000, 0.6103
960.0000, 0.6074
1000, 0.6002
1040, 0.5936
1080, 0.5853
1120, 0.5727
1160, 0.5575
1200, 0.5418
1240, 0.5245
1280, 0.5046
1320, 0.4833
1360, 0.4601
1400, 0.4356
1440, 0.4117
1480, 0.3909
1498.35, 0.3804