Folder: material-properties-interchange/plots from mmpds/Ti-6Al-4V/moduli

Note: README.md
Material Properties Interchange
===============================
[![Build Status](https://travis-ci.org/mvernacc/material-properties-interchange.svg?branch=master)](https://travis-ci.org/mvernacc/material-properties-interchange) [![codecov](https://codecov.io/gh/mvernacc/material-properties-interchange/branch/master/graph/badge.svg)](https://codecov.io/gh/mvernacc/material-properties-interchange)



Do for material properties what STEP files do for 3D geometry.

I've only made a rough demo so far. If you would find it useful please leave a comment or message me.

# Current Status
Check out `tutorials/xplane_airframes.ipynb` for a demonstration of how to use the package and why it's useful for engineers.

So far, I've implemented the following:
  -  A prototype of a material database record in YAML: `materials_data/Al_6061.yaml`. So far this is only a limited subset of properties for a single material.
  - The core datastructures + logic for representing a material property, and doing interpolation for state-dependent properties: `materials/property.py`.
  - The core logic for loading material data from a YAMl file into a python object: `materials/material.py`.
  -  Some unit tests for the above.

# Project Proposal

Provide for the interchange of information on material properties between CAD software, FEA software, and custom analysis scripts.
I spend a lot of time manually transcribing material properties from MatWeb or MMPDS into SolidWorks and my own python scripts.
This process is tedious and error prone -  I'd like to make it better, and I imagine other engineers would appreciate this too.
It would be valuable for a project to have a single (verified) database of material properties, which all of the project's computational tools (CAD, FEA, analysis scripts) reference.

## Core components

### Database
Format for recording properties of a material. Use a standard syntax (YAML)?

### Interchange Programs
Import from MatWeb.

Convert to/from formats used by major CAD/FEA packages.

### API
Access material properties from python, MATLAB, Excel(?).


# Similar Products/Projects

[Granta MI](https://www.grantadesign.com/products/mi/) and the [Material Data Management Consortium](http://www.grantadesign.com/download/pdf/mdmc_datasheet.pdf)

File: tensile_modulus.csv
-420.2129, 1.1773
-397.9415, 1.1494
-349.7780, 1.1061
-298.8939, 1.0726
-251.3511, 1.0507
-200.2187, 1.0386
-149.9012, 1.0360
-99.6639, 1.0314
-50.4382, 1.0263
-1.2365, 1.0191
77.9688, 0.9972
140.0711, 0.9749
201.1736, 0.9531
299.3316, 0.9175
400.4888, 0.8804
498.6708, 0.8469
601.8693, 0.8123
701.0390, 0.7773
802.2141, 0.7417
840.2213, 0.7232
882.1377, 0.6949
922.9166, 0.6553
962.0374, 0.6027
983.1213, 0.5560
1000.23, 0.5135