Folder: material-properties-interchange/plots from mmpds/low alloy steels/strength

Note: README.md
Material Properties Interchange
===============================
[![Build Status](https://travis-ci.org/mvernacc/material-properties-interchange.svg?branch=master)](https://travis-ci.org/mvernacc/material-properties-interchange) [![codecov](https://codecov.io/gh/mvernacc/material-properties-interchange/branch/master/graph/badge.svg)](https://codecov.io/gh/mvernacc/material-properties-interchange)



Do for material properties what STEP files do for 3D geometry.

I've only made a rough demo so far. If you would find it useful please leave a comment or message me.

# Current Status
Check out `tutorials/xplane_airframes.ipynb` for a demonstration of how to use the package and why it's useful for engineers.

So far, I've implemented the following:
  -  A prototype of a material database record in YAML: `materials_data/Al_6061.yaml`. So far this is only a limited subset of properties for a single material.
  - The core datastructures + logic for representing a material property, and doing interpolation for state-dependent properties: `materials/property.py`.
  - The core logic for loading material data from a YAMl file into a python object: `materials/material.py`.
  -  Some unit tests for the above.

# Project Proposal

Provide for the interchange of information on material properties between CAD software, FEA software, and custom analysis scripts.
I spend a lot of time manually transcribing material properties from MatWeb or MMPDS into SolidWorks and my own python scripts.
This process is tedious and error prone -  I'd like to make it better, and I imagine other engineers would appreciate this too.
It would be valuable for a project to have a single (verified) database of material properties, which all of the project's computational tools (CAD, FEA, analysis scripts) reference.

## Core components

### Database
Format for recording properties of a material. Use a standard syntax (YAML)?

### Interchange Programs
Import from MatWeb.

Convert to/from formats used by major CAD/FEA packages.

### API
Access material properties from python, MATLAB, Excel(?).


# Similar Products/Projects

[Granta MI](https://www.grantadesign.com/products/mi/) and the [Material Data Management Consortium](http://www.grantadesign.com/download/pdf/mdmc_datasheet.pdf)

File: strength_tensile_ultimate.csv
-101.795, 1.058
-80.000, 1.049
-60.000, 1.041
-40.000, 1.033
-20.000, 1.026
-0.000, 1.020
20.000, 1.015
40.000, 1.009
59.996, 1.004
79.999, 1.001
100.000, 0.997
120.000, 0.995
140.000, 0.991
160.000, 0.988
180.000, 0.986
200.000, 0.984
220.000, 0.981
240.000, 0.978
260.000, 0.976
280.000, 0.974
300.000, 0.971
320.000, 0.969
340.000, 0.966
359.997, 0.962
380.000, 0.959
400.000, 0.955
420.000, 0.951
440.000, 0.947
460.000, 0.941
480.000, 0.936
500.000, 0.930
520.000, 0.924
540.000, 0.917
560.000, 0.909
580.000, 0.901
600.000, 0.892
619.995, 0.883
640.000, 0.874
660.000, 0.864
680.000, 0.852
700.000, 0.839
720.000, 0.829
740.000, 0.815
760.000, 0.803
780.000, 0.787
800.000, 0.772
820.000, 0.755
840.000, 0.741
860.000, 0.722
880.000, 0.703
900.000, 0.687
920.000, 0.666
940.000, 0.648
960.000, 0.626
980.000, 0.608
1000.000, 0.586
1020.000, 0.566
1040.000, 0.544
1060.000, 0.521
1080.000, 0.500
1100.000, 0.473
1120.000, 0.450
1140.000, 0.428
1160.000, 0.404
1180.000, 0.379
1199.951, 0.355

File: strength_tensile_yield.csv
-101.604, 1.073
-80.006, 1.066
-60.005, 1.057
-40.000, 1.050
-20.000, 1.041
-0.003, 1.035
20.004, 1.025
40.000, 1.018
60.001, 1.008
80.000, 0.999
100.000, 0.993
120.000, 0.984
140.000, 0.978
160.000, 0.970
180.000, 0.962
200.000, 0.954
220.000, 0.944
240.000, 0.939
260.000, 0.931
280.000, 0.924
299.985, 0.914
319.987, 0.906
340.000, 0.899
359.987, 0.891
380.000, 0.881
400.000, 0.874
420.010, 0.865
440.000, 0.858
460.000, 0.849
479.996, 0.842
499.997, 0.834
520.000, 0.826
539.995, 0.818
560.000, 0.811
580.000, 0.801
599.999, 0.794
620.002, 0.783
639.997, 0.775
660.000, 0.766
680.000, 0.758
699.984, 0.748
719.992, 0.738
739.992, 0.728
759.987, 0.717
780.000, 0.705
800.000, 0.688
820.000, 0.670
840.013, 0.648
860.017, 0.629
880.000, 0.601
899.999, 0.576
920.000, 0.539
940.000, 0.510
960.000, 0.484
980.000, 0.456
1000.000, 0.430
1020.000, 0.405
1039.993, 0.382
1059.991, 0.360
1079.992, 0.339
1099.994, 0.318
1120.000, 0.300
1140.000, 0.278
1160.000, 0.260
1180.000, 0.248