Folder: material-properties-interchange/plots from mmpds/Al 6061/T6_strength_tensile_ultimate

Note: plots from mmpds/Al 6061/T6_strength_tensile_ultimate/T6_strength_tensile_ultimate.json
{"version":[4,0],"axesColl":[{"name":"XY","type":"XYAxes","isLogX":false,"isLogY":false,"calibrationPoints":[{"px":161.5,"py":854.6363636363636,"dx":"-400","dy":"0","dz":null},{"px":1047.8181818181815,"py":854.6363636363636,"dx":"1000","dy":"0","dz":null},{"px":161.49999999999997,"py":854.6363636363636,"dx":"-400","dy":"0","dz":null},{"px":161.50000000000006,"py":0.7727272727272569,"dx":"1000","dy":"1.6","dz":null}]}],"datasetColl":[{"name":"1/2 hr","axesName":"XY","metadataKeys":[],"data":[{"x":174.16168831168835,"y":100.79495123489912,"value":[-380,1.412574805245225]},{"x":186.82337662337667,"y":125.05807965900397,"value":[-360,1.3671096936919382]},{"x":199.48506493506494,"y":146.47218725215475,"value":[-340.00000000000006,1.3269831785320283]},{"x":212.14675324675326,"y":166.72748572202377,"value":[-320.00000000000006,1.2890280810532213]},{"x":224.80844155844156,"y":183.36332585578853,"value":[-300,1.2578552531209073]},{"x":237.47012987012988,"y":197.74840547628193,"value":[-280,1.230899980156235]},{"x":250.13181818181818,"y":209.4715009011011,"value":[-260,1.2089328276966325]},{"x":262.7935064935065,"y":223.8161689372908,"value":[-239.99999999999994,1.1820532793935248]},{"x":275.4551948051948,"y":235.44728244214895,"value":[-219.99999999999994,1.1602584859215521]},{"x":288.1168831168831,"y":244.54035243232423,"value":[-200,1.143219568505839]},{"x":300.77857142857147,"y":252.7505876121175,"value":[-179.99999999999994,1.1278349383046826]},{"x":313.44025974025976,"y":260.2582084499114,"value":[-159.99999999999994,1.1137668918053296]},{"x":326.10194805194806,"y":266.85591717855584,"value":[-140,1.101403870924399]},{"x":338.76363636363635,"y":271.9742020108925,"value":[-120,1.091813047070353]},{"x":351.4253246753247,"y":275.8732127323193,"value":[-100,1.0845069423381615]},{"x":364.087012987013,"y":280.93032035168625,"value":[-80,1.075030754518001]},{"x":376.74870129870123,"y":284.741758234683,"value":[-60.000000000000114,1.0678887468799125]},{"x":389.41038961038953,"y":289.35959727876025,"value":[-40.000000000000114,1.0592356761132626]},{"x":402.0720779220779,"y":294.4251163508081,"value":[-20.000000000000114,1.0497437266144027]},{"x":414.7337662337662,"y":300.0824010344374,"value":[-1.1368683772161603e-13,1.0391429057007082]},{"x":427.39545454545447,"y":305.57851833536733,"value":[19.999999999999886,1.0288440859512946]},{"x":440.05714285714276,"y":312.206022723109,"value":[39.999999999999886,1.0164252329063914]},{"x":452.7188311688311,"y":317.40986704350064,"value":[59.999999999999886,1.0066740846456628]},{"x":465.3805194805194,"y":324.8648801020964,"value":[79.99999999999989,0.9927046164709187]},{"x":478.0422077922077,"y":330.0898109352197,"value":[99.99999999999989,0.9829139555539136]},{"x":490.703896103896,"y":337.7824346085886,"value":[119.99999999999989,0.9684992441723547]},{"x":503.36558441558435,"y":345.57352779955386,"value":[139.9999999999999,0.9539000171123612]},{"x":516.0272727272727,"y":352.7061761835712,"value":[160,0.9405346073110618

Note: README.md
Material Properties Interchange
===============================
[![Build Status](https://travis-ci.org/mvernacc/material-properties-interchange.svg?branch=master)](https://travis-ci.org/mvernacc/material-properties-interchange) [![codecov](https://codecov.io/gh/mvernacc/material-properties-interchange/branch/master/graph/badge.svg)](https://codecov.io/gh/mvernacc/material-properties-interchange)



Do for material properties what STEP files do for 3D geometry.

I've only made a rough demo so far. If you would find it useful please leave a comment or message me.

# Current Status
Check out `tutorials/xplane_airframes.ipynb` for a demonstration of how to use the package and why it's useful for engineers.

So far, I've implemented the following:
  -  A prototype of a material database record in YAML: `materials_data/Al_6061.yaml`. So far this is only a limited subset of properties for a single material.
  - The core datastructures + logic for representing a material property, and doing interpolation for state-dependent properties: `materials/property.py`.
  - The core logic for loading material data from a YAMl file into a python object: `materials/material.py`.
  -  Some unit tests for the above.

# Project Proposal

Provide for the interchange of information on material properties between CAD software, FEA software, and custom analysis scripts.
I spend a lot of time manually transcribing material properties from MatWeb or MMPDS into SolidWorks and my own python scripts.
This process is tedious and error prone -  I'd like to make it better, and I imagine other engineers would appreciate this too.
It would be valuable for a project to have a single (verified) database of material properties, which all of the project's computational tools (CAD, FEA, analysis scripts) reference.

## Core components

### Database
Format for recording properties of a material. Use a standard syntax (YAML)?

### Interchange Programs
Import from MatWeb.

Convert to/from formats used by major CAD/FEA packages.

### API
Access material properties from python, MATLAB, Excel(?).


# Similar Products/Projects

[Granta MI](https://www.grantadesign.com/products/mi/) and the [Material Data Management Consortium](http://www.grantadesign.com/download/pdf/mdmc_datasheet.pdf)

File: 1_2 hr.csv
-380.00, 1.4126
-360.00, 1.3671
-340.00, 1.3270
-320.00, 1.2890
-300.00, 1.2579
-280.00, 1.2309
-260.00, 1.2089
-240.00, 1.1821
-220.00, 1.1603
-200.00, 1.1432
-180.00, 1.1278
-160.00, 1.1138
-140.00, 1.1014
-120.00, 1.0918
-100.00, 1.0845
-80.000, 1.0750
-60.000, 1.0679
-40.000, 1.0592
-20.000, 1.0497
-1.1369e-13, 1.0391
20.000, 1.0288
40.000, 1.0164
60.000, 1.0067
80.000, 0.99270
100.00, 0.98291
120.00, 0.96850
140.00, 0.95390
160.00, 0.94053
180.00, 0.92594
200.00, 0.91021
220.00, 0.89164
240.00, 0.87056
260.00, 0.84812
280.00, 0.82728
300.00, 0.80225
320.00, 0.76898
340.00, 0.73968
360.00, 0.70905
380.00, 0.67655
400.00, 0.63955
420.00, 0.59661
440.00, 0.55341
460.00, 0.50947
480.00, 0.46230
500.00, 0.40986
520.00, 0.35904
540.00, 0.31600
560.00, 0.27518
580.00, 0.24218
600.00, 0.21269
620.00, 0.18384
640.00, 0.15932
660.00, 0.13756
676.28, 0.12163

File: 10 hr.csv
-380.00, 1.4126
-360.00, 1.3667
-340.00, 1.3267
-320.00, 1.2893
-300.00, 1.2584
-280.00, 1.2310
-260.00, 1.2090
-240.00, 1.1821
-220.00, 1.1603
-200.00, 1.1433
-180.00, 1.1280
-160.00, 1.1138
-140.00, 1.1019
-120.00, 1.0918
-100.00, 1.0845
-80.000, 1.0756
-60.000, 1.0681
-40.000, 1.0590
-20.000, 1.0496
-1.1369e-13, 1.0392
20.000, 1.0288
40.000, 1.0166
60.000, 1.0068
80.000, 0.99254
100.00, 0.98244
120.00, 0.96857
140.00, 0.95425
160.00, 0.94045
180.00, 0.92585
200.00, 0.91019
220.00, 0.89173
240.00, 0.87066
260.00, 0.84599
280.00, 0.82192
300.00, 0.79626
320.00, 0.76476
340.00, 0.72896
360.00, 0.68479
380.00, 0.64985
400.00, 0.60894
420.00, 0.56435
440.00, 0.51807
460.00, 0.46982
480.00, 0.41775
500.00, 0.36038
520.00, 0.31669
540.00, 0.27914
560.00, 0.24522
580.00, 0.21366
600.00, 0.18518
620.00, 0.16143
640.00, 0.13966
660.00, 0.12268
680.00, 0.10616
698.54, 0.091270

File: 100 hr.csv
-399.99, 1.4569
-380.00, 1.4126
-360.00, 1.3667
-340.00, 1.3267
-320.00, 1.2893
-300.00, 1.2584
-280.00, 1.2310
-260.00, 1.2090
-240.00, 1.1821
-220.00, 1.1603
-200.00, 1.1433
-180.00, 1.1280
-160.00, 1.1138
-140.00, 1.1019
-120.00, 1.0918
-100.00, 1.0845
-80.000, 1.0756
-60.000, 1.0681
-40.000, 1.0590
-20.000, 1.0496
-1.1369e-13, 1.0392
20.000, 1.0288
40.000, 1.0166
60.000, 1.0055
80.000, 0.99467
100.00, 0.98244
120.00, 0.96857
140.00, 0.95425
160.00, 0.94045
180.00, 0.92585
200.00, 0.91019
220.00, 0.89173
240.00, 0.87066
260.00, 0.84598
280.00, 0.82533
300.00, 0.79549
320.00, 0.76657
340.00, 0.71722
360.00, 0.67831
380.00, 0.62351
400.00, 0.56524
420.00, 0.50610
440.00, 0.44332
460.00, 0.36706
480.00, 0.31821
500.00, 0.26407
520.00, 0.21631
540.00, 0.17691
560.00, 0.14942
580.00, 0.12975
600.00, 0.11383
620.00, 0.10276
639.78, 0.093395

File: 1000 hr.csv
-395.70, 1.4493
-380.00, 1.4126
-360.00, 1.3667
-340.00, 1.3267
-320.00, 1.2893
-300.00, 1.2584
-280.00, 1.2310
-260.00, 1.2081
-240.00, 1.1821
-220.00, 1.1603
-200.00, 1.1433
-180.00, 1.1280
-160.00, 1.1138
-140.00, 1.1019
-120.00, 1.0918
-100.00, 1.0845
-80.000, 1.0756
-60.000, 1.0681
-40.000, 1.0590
-20.000, 1.0496
-1.1369e-13, 1.0392
20.000, 1.0288
40.000, 1.0166
60.000, 1.0064
80.000, 0.99594
100.00, 0.98244
120.00, 0.96857
140.00, 0.95425
160.00, 0.94045
180.00, 0.92585
200.00, 0.91019
220.00, 0.89173
240.00, 0.87066
260.00, 0.84853
280.00, 0.82213
300.00, 0.79939
320.00, 0.76634
340.00, 0.71345
357.13, 0.63194
380.00, 0.52965
400.00, 0.45964
420.00, 0.39058
440.00, 0.33579
460.00, 0.29061
480.00, 0.24390
500.00, 0.20632
520.00, 0.16981
540.00, 0.13679
560.00, 0.10770

File: 10000 hr.csv
-394.62, 1.4489
-380.00, 1.4126
-360.00, 1.3667
-340.00, 1.3267
-320.00, 1.2893
-300.00, 1.2584
-280.00, 1.2310
-260.00, 1.2090
-240.00, 1.1821
-220.00, 1.1603
-200.00, 1.1433
-180.00, 1.1280
-160.00, 1.1138
-140.00, 1.1019
-120.00, 1.0918
-100.00, 1.0845
-80.000, 1.0756
-60.000, 1.0681
-40.000, 1.0590
-20.000, 1.0496
-1.1369e-13, 1.0392
20.000, 1.0288
40.000, 1.0166
60.000, 1.0059
80.000, 0.99254
100.00, 0.98244
120.00, 0.96857
140.00, 0.95425
160.00, 0.94045
180.00, 0.92585
200.00, 0.91019
220.00, 0.89173
240.00, 0.87066
260.00, 0.84598
280.00, 0.80068
300.00, 0.74037
320.00, 0.67310
340.00, 0.60870
360.00, 0.54369
380.00, 0.47273
400.00, 0.40136
420.00, 0.33152
440.00, 0.27767
460.00, 0.23107
480.00, 0.19174
500.00, 0.15689
520.00, 0.13132
540.00, 0.11305
560.00, 0.099140
580.00, 0.086823
600.00, 0.077168
620.00, 0.068285
640.00, 0.064068
660.20, 0.059392